Ladekurvenmessung

Zeit: 2018_05_02 15.27.09

Info: FVA3, v = 0.8059, T = 40, F = 20, h = 332.7

Ladewiderstand[Ohm]: 1012700

Störkapazität[nF]: 0.000000

Entladezeit[ms]: 100

Abtastrate[Hz]: 250000

Anzahl der Messwerte: 2500

Verzögerung [ms]: 1


Kurve 1

0.014352
0.012148
0.010108
0.011885
0.00899
0.011852
0.011029
0.011227
0.004417
0.007213
0.006687
0.008167
0.005239
0.004976
0.00774
0.006259
0.006522
0.008595
0.008299
0.004515
0.008299
0.006029
0.004318
0.005601
0.005963
0.00366
0.004055
0.001851
0.005502
0.001719
0.005009
0.002772
0.006753
0.005963
0.003561
0.007641
0.002541
0.008397
0.003364
0.006753
0.001587
0.003364
0.003298
0.005733
0.003199
0.002706
0.003594
0.000337
0.001818
-0.00315
0.004285
0.00014
0.007509
0.003364
0.00774
0.005206
0.007345
0.004055
0.00468
0.003068
0.003528
0.00287
0.003134
0.004055
0.000929
0.0057
0.003759
0.007772
0.004548
0.00843
0.006687
0.007246
0.003989
0.005897
0.005305
0.004186
0.003397
0.002015
0.003068
0.002509
0.002114
0.00014
0.00366
0.002739
0.00264
0.003397
0.003693
0.003364
0.008924
0.000469
0.003989
0.00491
0.004581
0.002673
0.003693
0.003463
0.003134
0.005338
0.006062
0.007082
0.004186
0.003364
0.003825
0.004548
0.003956
0.006851
0.000502
0.009779
0.004548
0.004219
0.005075
0.00491
0.003298
0.003298
0.003331
0.002114
0.005667
0.00162
0.004318
-5.8e-05
0.004713
0.001357
0.005371
0.003002
0.004022
0.005535
0.004022
0.002212
0.000304
0.002706
0.002903
0.00241
-0.000584
0.003956
0.001291
0.001752
0.001949
0.003463
0.002509
0.002476
0.001522
0.005108
0.002212
0.003232
0.006029
-5.8e-05
-0.000683
0.003397
0.003397
0.002509
0.003792
0.003134
0.001818
0.002936
0.003134
0.005864
0.004055
0.00218
0.003759
0.004417
0.002344
0.004779
0.003101
0.003759
0.00468
0.00468
-0.004137
0.00116
0.00287
0.002443
0.004581
0.009582
0.009154
0.008167
0.008628
0.006917
0.007213
0.004252
0.007016
0.005075
0.006424
0.008266
0.008496
0.006555
0.007904
0.007443
0.010898
0.010174
0.011391
0.009845
0.012872
0.010799
0.011951
0.013497
0.010931
0.011293
0.011029
0.01047
0.008003
0.009055
0.01047
0.010108
0.007443
0.012016
0.011687
0.012773
0.010042
0.014254
0.012674
0.011589
0.013003
0.013398
0.011885
0.010174
0.012806
0.009779
0.010437
0.010174
0.014813
0.010404
0.010437
0.010075
0.011391
0.007641
0.009713
0.008726
0.009713
0.009681
0.007345
0.007246
0.005996
0.0107
0.004548
0.008134
0.004055
0.006884
0.005601
0.005634
0.007082
0.004548
0.006193
0.006522
0.006029
0.00695
0.009352
0.005173
0.008233
0.005831
0.008661
0.010536
0.003726
0.007312
0.016524
0.022906
0.028795
0.039553
0.04735
0.054193
0.058009
0.064786
0.069261
0.077189
0.081236
0.086204
0.088605
0.094395
0.10387
0.107127
0.105318
0.113477
0.115352
0.118938
0.125024
0.131966
0.134203
0.135157
0.141046
0.138645
0.145356
0.142329
0.149106
0.149041
0.153219
0.157298
0.159766
0.160358
0.164832
0.164404
0.165852
0.168879
0.169274
0.173189
0.173715
0.175524
0.178419
0.179933
0.17661
0.181249
0.181084
0.18546
0.188783
0.187203
0.183946
0.188487
0.185855
0.189112
0.188881
0.190395
0.192632
0.192138
0.194277
0.186907
0.193882
0.191316
0.196053
0.190888
0.1976
0.18875
0.195165
0.195955
0.195527
0.199245
0.195395
0.19602
0.195922
0.199014
0.196218
0.195066
0.193191
0.195922
0.198389
0.199146
0.192533
0.196152
0.198619
0.200297
0.197501
0.198225
0.200824
0.19477
0.19931
0.198883
0.198817
0.197468
0.198422
0.200495
0.200824
0.198093
0.202074
0.195461
0.196218
0.201646
0.199508
0.198948
0.197534
0.19908
0.196251
0.199738
0.196843
0.197665
0.195461
0.196415
0.197336
0.199442
0.196514
0.195264
0.195198
0.197764
0.202107
0.196481
0.197764
0.196448
0.19329
0.194803
0.196843
0.193027
0.194145
0.195757
0.193356
0.193191
0.196876
0.196349
0.198126
0.195889
0.196448
0.19783
0.197205
0.195494
0.198817
0.192369
0.196053
0.19579
0.192829
0.198587
0.190263
0.196086
0.194606
0.19477
0.194704
0.198652
0.191086
0.192303
0.19533
0.194145
0.193882
0.194046
0.19579
0.196218
0.194079
0.191842
0.194737
0.191974
0.193915
0.193125
0.192434
0.191415
0.194375
0.19704
0.19783
0.192961
0.194014
0.195724
0.187532
0.196349
0.193421
0.192467
0.186743
0.188684
0.190099
0.188783
0.189276
0.19375
0.190921
0.191941
0.19
0.191744
0.191974
0.18977
0.19227
0.192763
0.189638
0.18773
0.189441
0.191711
0.188618
0.184473
0.187927
0.188092
0.187796
0.191546
0.194112
0.187368
0.186611
0.191974
0.187763
0.188947
0.187927
0.188816
0.188092
0.188519
0.187796
0.18671
0.186513
0.186973
0.188947
0.190493
0.191908
0.193027
0.190855
0.192599
0.192336
0.189243
0.189474
0.19148
0.195724
0.187335
0.195198
0.188454
0.192961
0.189243
0.192336
0.194014
0.191678
0.191382
0.19329
0.196053
0.197402
0.189671
0.195428
0.196613
0.195955
0.198159
0.198587
0.201482
0.196349
0.200199
0.199902
0.198784
0.199409
0.198817
0.203225
0.201317
0.19806
0.201054
0.202534
0.199146
0.202765
0.201909
0.205989
0.199771
0.200857
0.202173
0.198981
0.199541
0.200626
0.202699
0.203587
0.204607
0.203817
0.203456
0.202173
0.203159
0.202173
0.204804
0.197994
0.204146
0.202699
0.198948
0.199606
0.203752
0.200429
0.198652
0.201613
0.201054
0.205331
0.198718
0.201186
0.201383
0.200363
0.20135
0.201087
0.199014
0.197731
0.200034
0.198718
0.196349
0.200133
0.196316
0.197863
0.196316
0.198718
0.200922
0.195988
0.197698
0.196974
0.197468
0.193224
0.196316
0.194244
0.191645
0.193224
0.195198
0.190921
0.193323
0.19
0.196448
0.189243
0.191711
0.189506
0.189474
0.191415
0.188454
0.192961
0.188848
0.192763
0.190855
0.191941
0.189474
0.190625
0.187203
0.189342
0.189079
0.188848
0.193158
0.187763
0.19
0.190954
0.190296
0.189737
0.191316
0.192237
0.193027
0.187401
0.194474
0.191217
0.191086
0.189177
0.190329
0.192763
0.188487
0.190131
0.192237
0.190954
0.19046
0.192237
0.189112
0.193816
0.189967
0.19352
0.191447
0.191382
0.190789
0.191086
0.190888
0.189342
0.190428
0.193915
0.193257
0.191908
0.19352
0.19352
0.193981
0.195099
0.194343
0.192467
0.194178
0.194606
0.190329
0.19579
0.19352
0.1925
0.199146
0.192369
0.194474
0.196284
0.195362
0.197731
0.19658
0.198488
0.197534
0.201383
0.201844
0.193421
0.198258
0.200133
0.200495
0.198619
0.198126
0.201251
0.198554
0.201186
0.202502
0.199705
0.201712
0.197632
0.202534
0.200297
0.202238
0.199968
0.202107
0.199376
0.200725
0.199442
0.198192
0.197764
0.195593
0.197764
0.20237
0.196909
0.195395
0.196382
0.194573
0.192895
0.19306
0.195757
0.191184
0.195856
0.180722
0.19375
0.190625
0.183617
0.184111
0.185361
0.188158
0.186611
0.187302
0.185197
0.188388
0.183025
0.184111
0.183321
0.185032
0.18342
0.184604
0.184045
0.183091
0.183223
0.181512
0.185559
0.181249
0.180328
0.179341
0.180821
0.180492
0.182367
0.183289
0.184473
0.183881
0.185591
0.184802
0.186513
0.184868
0.184539
0.185986
0.185032
0.185953
0.187401
0.191579
0.190131
0.190197
0.18977
0.191711
0.189539
0.192533
0.189177
0.19431
0.191283
0.192566
0.195066
0.195165
0.19329
0.195626
0.192763
0.193421
0.194968
0.193981
0.199541
0.194902
0.202205
0.19454
0.196415
0.199606
0.200034
0.199442
0.202205
0.197731
0.20033
0.201679
0.202403
0.204245
0.198455
0.199245
0.199212
0.201317
0.198323
0.202699
0.200067
0.200396
0.200067
0.203094
0.19806
0.201712
0.199639
0.200396
0.20214
0.197369
0.199212
0.194408
0.199409
0.198587
0.199705
0.19533
0.199573
0.198488
0.198356
0.197665
0.194639
0.193356
0.196316
0.198159
0.198587
0.19658
0.19533
0.198488
0.194672
0.197698
0.185624
0.19681
0.192369
0.191053
0.195264
0.192171
0.192336
0.192204
0.193454
0.192862
0.197961
0.192303
0.19352
0.189112
0.190822
0.192698
0.191217
0.191151
0.192007
0.191118
0.192007
0.188651
0.190855
0.187269
0.188092
0.189013
0.18977
0.188947
0.189342
0.188322
0.189441
0.1925
0.187236
0.189145
0.188421
0.188684
0.188618
0.189408
0.186052
0.18467
0.18444
0.185657
0.188684
0.188816
0.185624
0.189408
0.187401
0.18796
0.187039
0.185657
0.186677
0.186677
0.189243
0.183289
0.184933
0.182828
0.185394
0.181117
0.184275
0.183716
0.182631
0.182861
0.184111
0.186282
0.185986
0.186414
0.180657
0.186282
0.182565
0.181117
0.18092
0.18194
0.179703
0.181216
0.182302
0.182038
0.184473
0.182894
0.182565
0.18013
0.186151
0.186118
0.188585
0.184308
0.18444
0.185131
0.184736
0.183256
0.185262
0.183716
0.182005
0.183091
0.1824
0.183354
0.182565
0.180262
0.185559
0.187335
0.18569
0.189112
0.188158
0.188848
0.186973
0.185822
0.184835
0.185526
0.183683
0.190493
0.185888
0.18694
0.187006
0.187269
0.183848
0.189704
0.184901
0.186019
0.186447
0.186414
0.189342
0.186842
0.187105
0.186085
0.18819
0.184637
0.185657
0.188454
0.184012
0.187335
0.188487
0.187072
0.188783
0.186447
0.189177
0.194441
0.186052
0.19148
0.189572
0.189243
0.186842
0.189408
0.185657
0.186644
0.188552
0.187927
0.181841
0.181709
0.18796
0.190822
0.190987
0.188223
0.193158
0.189901
0.194046
0.192994
0.192402
0.192895
0.192336
0.191447
0.192566
0.192566
0.192467
0.195461
0.19227
0.192303
0.193388
0.194869
0.192763
0.196251
0.193685
0.194704
0.196711
0.195264
0.191744
0.195198
0.194902
0.194737
0.194968
0.194277
0.1976
0.192895
0.196185
0.19533
0.194507
0.192731
0.196119
0.194145
0.196119
0.197501
0.196152
0.197698
0.193586
0.193388
0.192665
0.19375
0.192928
0.191513
0.194474
0.196909
0.195362
0.195724
0.194737
0.195297
0.195494
0.197205
0.19783
0.197238
0.196251
0.198554
0.19806
0.198027
0.199442
0.198587
0.200889
0.201186
0.200626
0.199705
0.201515
0.19987
0.202633
0.201186
0.199277
0.204607
0.205101
0.201218
0.203028
0.204377
0.202863
0.203883
0.199606
0.206515
0.20339
0.206087
0.207765
0.209542
0.206186
0.208555
0.207206
0.208654
0.207305
0.203324
0.204607
0.205759
0.206153
0.204804
0.207305
0.202403
0.208555
0.208358
0.207765
0.204114
0.205265
0.207338
0.206745
0.207206
0.20816
0.208423
0.206318
0.208193
0.207338
0.207305
0.207667
0.206877
0.208061
0.2077
0.205791
0.208555
0.207403
0.206647
0.208423
0.209279
0.208193
0.208555
0.213391
0.214016
0.21168
0.210792
0.210134
0.206318
0.206811
0.206449
0.210496
0.20668
0.20793
0.209344
0.208654
0.209937
0.209904
0.205364
0.20214
0.205857
0.204081
0.207173
0.206515
0.205232
0.204081
0.203258
0.205594
0.205561
0.206285
0.205101
0.204903
0.203357
0.205462
0.206745
0.204541
0.20543
0.202633
0.206285
0.209871
0.205101
0.203488
0.204212
0.202995
0.199705
0.200824
0.199771
0.200133
0.199245
0.200659
0.201153
0.202008
0.200626
0.202403
0.200791
0.198126
0.198619
0.197797
0.197205
0.195922
0.198488
0.199639
0.194704
0.195001
0.200528
0.195001
0.197665
0.196251
0.199508
0.197731
0.196448
0.202008
0.190888
0.194079
0.193619
0.193915
0.191612
0.192632
0.192698
0.194277
0.192698
0.192434
0.193783
0.193882
0.195494
0.193257
0.196415
0.192961
0.194079
0.18773
0.192994
0.19204
0.19
0.191711
0.192895
0.189605
0.192105
0.19148
0.191053
0.19102
0.190691
0.192961
0.193191
0.191809
0.192303
0.192007
0.190428
0.192369
0.191316
0.190493
0.190691
0.191842
0.189803
0.192204
0.190131
0.192171
0.191809
0.196218
0.190757
0.192994
0.186842
0.190263
0.188618
0.190164
0.191513
0.188519
0.193421
0.190921
0.190888
0.192961
0.193421
0.190526
0.189671
0.191118
0.190691
0.191875
0.191349
0.190592
0.188881
0.193191
0.189638
0.195198
0.190559
0.190559
0.190822
0.190954
0.190691
0.19125
0.192204
0.192105
0.192336
0.191513
0.18898
0.189901
0.19102
0.190757
0.192763
0.19023
0.193356
0.19204
0.192994
0.193652
0.195198
0.190658
0.191053
0.191151
0.190954
0.189704
0.190329
0.195362
0.187335
0.191875
0.193356
0.190131
0.191217
0.191579
0.190296
0.190954
0.192566
0.193125
0.194211
0.193421
0.193125
0.193257
0.193553
0.192796
0.195001
0.19102
0.196481
0.195066
0.193652
0.197238
0.196119
0.19477
0.1976
0.19556
0.194408
0.195593
0.192961
0.195922
0.192204
0.192566
0.193125
0.19352
0.193224
0.194408
0.193849
0.194573
0.195231
0.195231
0.193882
0.19602
0.195988
0.196316
0.193849
0.197106
0.196942
0.196053
0.196645
0.197698
0.197238
0.190822
0.195198
0.193849
0.194014
0.190724
0.197501
0.196053
0.196316
0.19885
0.196086
0.196744
0.192862
0.198027
0.193948
0.195988
0.194211
0.199409
0.193421
0.194244
0.196152
0.194737
0.193783
0.196514
0.194606
0.195527
0.200199
0.196514
0.194639
0.195724
0.193191
0.195461
0.19704
0.191842
0.195955
0.192829
0.194836
0.194639
0.193849
0.197501
0.195461
0.195001
0.196514
0.196711
0.193685
0.191612
0.192434
0.194474
0.193553
0.19204
0.19431
0.19579
0.190822
0.195856
0.195428
0.191053
0.191875
0.194211
0.195001
0.195198
0.197172
0.194211
0.193388
0.193158
0.193224
0.196547
0.192796
0.190921
0.19148
0.192007
0.192138
0.189375
0.19806
0.194737
0.196744
0.195362
0.190921
0.193356
0.191316
0.194014
0.192599
0.191908
0.192994
0.195428
0.192007
0.194112
0.192171
0.192434
0.192533
0.19046
0.19306
0.195362
0.191908
0.19533
0.197929
0.194507
0.194639
0.193323
0.192467
0.193421
0.186447
0.190362
0.19431
0.189177
0.191744
0.192961
0.195099
0.194573
0.19533
0.194375
0.193553
0.196711
0.193158
0.195659
0.193092
0.195428
0.194277
0.194014
0.19806
0.195724
0.193816
0.19681
0.191941
0.195165
0.195066
0.19352
0.194211
0.190559
0.196086
0.194573
0.196316
0.192994
0.195626
0.195099
0.194606
0.192698
0.193619
0.192434
0.193158
0.194474
0.19454
0.195494
0.193158
0.196909
0.193849
0.19806
0.195132
0.197632
0.195132
0.196349
0.193388
0.195231
0.192796
0.193454
0.192303
0.191908
0.197336
0.194935
0.19681
0.196678
0.196613
0.199277
0.199014
0.19704
0.1976
0.196119
0.199804
0.201778
0.198027
0.198159
0.198455
0.19375
0.19454
0.197271
0.199508
0.196448
0.199343
0.197007
0.198455
0.196316
0.197402
0.199902
0.19658
0.199968
0.199541
0.198093
0.197007
0.198916
0.196316
0.196876
0.196744
0.198619
0.197303
0.196843
0.197402
0.198554
0.201021
0.197698
0.202995
0.200429
0.201909
0.200396
0.197567
0.198685
0.194639
0.195922
0.199047
0.194902
0.197468
0.199672
0.196481
0.200396
0.197238
0.203686
0.200034
0.201811
0.203456
0.200857
0.199902
0.201284
0.195856
0.198258
0.198323
0.200725
0.198619
0.198422
0.201383
0.19885
0.200231
0.200231
0.201416
0.201449
0.200988
0.200462
0.199179
0.199277
0.199014
0.197698
0.198027
0.197961
0.197863
0.199343
0.195428
0.20112
0.199179
0.201021
0.200297
0.2001
0.19908
0.199508
0.201909
0.203028
0.197106
0.196678
0.196448
0.195033
0.196119
0.195955
0.197797
0.197534
0.198948
0.19885
0.200166
0.197336
0.200133
0.195132
0.20362
0.195626
0.197731
0.20135
0.196777
0.199146
0.201317
0.196514
0.195297
0.195395
0.199902
0.198652
0.198521
0.200001
0.196349
0.200593
0.198948
0.201778
0.199343
0.199573
0.200791
0.198258
0.199541
0.197435
0.198817
0.198258
0.196744
0.197106
0.20158
0.198883
0.199968
0.201646
0.202304
0.194737
0.200593
0.199245
0.199508
0.198159
0.196152
0.199343
0.198718
0.197797
0.197764
0.201186
0.197994
0.198587
0.196942
0.197402
0.198718
0.198192
0.194672
0.195889
0.191151
0.199277
0.197238
0.196613
0.196777
0.194869
0.195165
0.195626
0.19987
0.196218
0.199277
0.197369
0.196481
0.199245
0.195001
0.195659
0.197402
0.195297
0.198488
0.195527
0.195988
0.198587
0.197665
0.195757
0.195362
0.196843
0.192994
0.196382
0.195922
0.19681
0.194968
0.195297
0.19602
0.19829
0.197402
0.198258
0.197139
0.194375
0.196448
0.196218
0.198126
0.1976
0.199113
0.196382
0.195659
0.196843
0.197994
0.195001
0.194211
0.192632
0.197106
0.195988
0.200396
0.198981
0.196316
0.197501
0.20158
0.202304
0.197336
0.197863
0.19658
0.19987
0.194573
0.197139
0.193487
0.194869
0.199837
0.197205
0.198587
0.197863
0.195428
0.196218
0.200528
0.198718
0.197632
0.19454
0.198356
0.195428
0.198619
0.197896
0.192533
0.195659
0.196909
0.197501
0.195428
0.197698
0.192895
0.194803
0.196316
0.200001
0.189112
0.197303
0.196481
0.198093
0.194375
0.19681
0.194935
0.196843
0.195922
0.19375
0.196678
0.196316
0.194737
0.197665
0.199902
0.199672
0.198356
0.199541
0.196086
0.197929
0.198652
0.196086
0.195461
0.195231
0.192895
0.195428
0.195626
0.196448
0.195922
0.195724
0.196185
0.197238
0.195297
0.202798
0.19931
0.195099
0.195823
0.196777
0.193191
0.19658
0.19556
0.196316
0.198554
0.197139
0.196613
0.199014
0.192467
0.193356
0.198027
0.192928
0.195659
0.194079
0.19556
0.196942
0.19533
0.194343
0.197007
0.194507
0.195626
0.192336
0.192731
0.195428
0.193191
0.196974
0.195362
0.197731
0.196349
0.197994
0.192698
0.192402
0.19329
0.194803
0.192105
0.195988
0.193849
0.196942
0.192632
0.192204
0.196349
0.1925
0.193849
0.191908
0.195231
0.195264
0.194869
0.195527
0.196974
0.194869
0.195165
0.194803
0.193487
0.195889
0.191842
0.191579
0.191349
0.191711
0.195955
0.196218
0.196119
0.197303
0.196349
0.196876
0.195165
0.196218
0.196251
0.195724
0.196119
0.196678
0.198587
0.196382
0.197271
0.195099
0.196316
0.195099
0.195955
0.196316
0.198192
0.197665
0.197797
0.194277
0.199935
0.199672
0.199376
0.1976
0.196053
0.19533
0.19556
0.193915
0.196448
0.197205
0.197534
0.195889
0.192961
0.19908
0.19556
0.197139
0.197139
0.198027
0.19885
0.197632
0.195066
0.196349
0.19431
0.192763
0.191776
0.193158
0.197271
0.191447
0.197896
0.19885
0.196152
0.196316
0.19829
0.199738
0.199804
0.198751
0.195395
0.195132
0.198422
0.201383
0.197534
0.199508
0.196415
0.2001
0.196086
0.196942
0.196284
0.197007
0.197336
0.19908
0.202765
0.201876
0.199442
0.199047
0.198718
0.199212
0.198455
0.196251
0.200659
0.200593
0.198619
0.195955
0.196876
0.197731
0.195691
0.20135
0.202238
0.197994
0.202633
0.201778
0.197501
0.198488
0.193717
0.1976
0.19533
0.196316
0.193915
0.196119
0.196086
0.197929
0.199047
0.198587
0.197534
0.200166
0.195691
0.199968
0.197402
0.198948
0.202304
0.197007
0.201317
0.199179
0.197007
0.199146
0.197007
0.195724
0.196909
0.195461
0.199212
0.198521
0.202863
0.197863
0.19806
0.200297
0.195659
0.19829
0.196974
0.197205
0.193619
0.199376
0.199508
0.200495
0.195264
0.198587
0.19579
0.196547
0.197369
0.1976
0.197007
0.19602
0.196547
0.196876
0.199639
0.194573
0.194441
0.197205
0.192698
0.190822
0.193849
0.192796
0.193027
0.195988
0.195461
0.195527
0.19602
0.196876
0.193685
0.197632
0.192105
0.19204
0.190822
0.194474
0.199245
0.195297
0.191744
0.19533
0.195198
0.193388
0.193027
0.192763
0.195264
0.193388
0.193948
0.19602
0.194836
0.195823
0.194737
0.193454
0.19102
0.191678
0.19431
0.192007
0.196053
0.19477
0.192698
0.194639
0.194343
0.195527
0.196382
0.193849
0.195198
0.197567
0.194836
0.196744
0.191382
0.194836
0.193356
0.190526
0.192895
0.189901
0.192763
0.195395
0.194014
0.194112
0.195297
0.196086
0.196053
0.196744
0.198027
0.191546
0.193685
0.191612
0.195757
0.194869
0.195198
0.192796
0.196119
0.19227
0.1976
0.196415
0.19704
0.193685
0.194672
0.198027
0.194277
0.19556
0.195132
0.194836
0.190164
0.195823
0.19556
0.195264
0.193323
0.199541
0.19431
0.193257
0.195659
0.195297
0.198027
0.195033
0.196909
0.194079
0.192763
0.194211
0.198225
0.193158
0.19375
0.195494
0.196316
0.195001
0.193619
0.196744
0.19556
0.194704
0.194573
0.197731
0.19454
0.193915
0.194737
0.198718
0.195724
0.197106
0.196777
0.198619
0.196119
0.198587
0.196777
0.193981
0.194145
0.195889
0.195626
0.19533
0.195691
0.20214
0.197106
0.198883
0.199442
0.200857
0.195494
0.193685
0.197468
0.196316
0.195395
0.195395
0.19375
0.194277
0.195955
0.195626
0.195264
0.196382
0.192665
0.192632
0.193816
0.19329
0.192336
0.19829
0.194112
0.195395
0.19579
0.197961
0.195362
0.195494
0.19556
0.195626
0.194902
0.190099
0.199409
0.195724
0.197172
0.197534
0.202074
0.194836
0.199837
0.197007
0.196645
0.19829
0.195362
0.197336
0.197863
0.19602
0.19477
0.19704
0.190855
0.19806
0.198718
0.197994
0.197238
0.198422
0.196514
0.196448
0.196185
0.197336
0.195165
0.192566
0.196382
0.196086
0.193125
0.193717
0.196974
0.191579
0.196613
0.197303
0.196251
0.191842
0.192862
0.195264
0.197665
0.193191
0.19375
0.197073
0.194672
0.19806
0.195099
0.196415
0.194343
0.19352
0.193981
0.196185
0.194869
0.192796
0.192237
0.195264
0.196349
0.198455
0.196711
0.19806
0.196974
0.195757
0.196645
0.196678
0.194902
0.197501
0.196448
0.195231
0.199146
0.191875
0.191415
0.195955
0.19579
0.195297
0.199442
0.197139
0.19829
0.199212
0.197205
0.194935
0.194277
0.199606
0.200988
0.196909
0.197073
0.19454
0.193421
0.197501
0.192105
0.196547
0.196448
0.200297
0.198784
0.199508
0.197632
0.197665
0.197863
0.196481
0.197698
0.197501
0.198751
0.196415
0.199606
0.196053
0.198126
0.196876
0.198587
0.196711
0.195691
0.196349
0.199738
0.198126
0.198455
0.19987
0.197929
0.198027
0.198356
0.198455
0.195461
0.199639
0.195099
0.197336
0.199179
0.19602
0.198159
0.199245
0.19829
0.197468
0.196777
0.193882
0.200725
0.194112
0.197007
0.19704
0.197863
0.195527
0.1976
0.194836
0.195527
0.195066
0.196086
0.197961
0.198784
0.192402
0.199508
0.199541
0.197896
0.200001
0.197896
0.197007
0.199935
0.19681
0.19658
0.199014
0.194935
0.199376
0.19829
0.198652
0.19931
0.201811
0.202205
0.199047
0.198093
0.19806
0.200922
0.198587
0.200955
0.201186
0.199212
0.19681
0.190033
0.194211
0.196349
0.196284
0.194869
0.199902
0.196152
0.198225
0.200001
0.201021
0.200231
0.202534
0.198587
0.198718
0.196613
0.198652
0.193652
0.197205
0.193553
0.196448
0.194968
0.193816
0.196711
0.19704
0.199672
0.196843
0.198981
0.197501
0.200692
0.193783
0.201449
0.199047
0.195066
0.199639
0.199014
0.195724
0.196613
0.197073
0.194803
0.196119
0.19306
0.19704
0.198422
0.198817
0.19806
0.202107
0.197271
0.200034
0.200659
0.198718
0.197764
0.196514
0.198784
0.196645
0.195198
0.197271
0.202469
0.197271
0.195395
0.198126
0.201218
0.197468
0.198356
0.202403
0.19681
0.197303
0.200297
0.197994
0.192171
0.19477
0.195856
0.195362
0.194902
0.199541
0.198718
0.196547
0.198948
0.200495
0.199212
0.199672
0.199968
0.198948
0.19908
0.199146
0.195955
0.202205
0.194737
0.202666
0.198652
0.195165
0.198652
0.198258
0.199179
0.19806
0.200725
0.199179
0.201218
0.201844
0.199508
0.199146
0.198258
0.195856
0.196777
0.195955
0.196448
0.19987
0.195461
0.198817
0.200297
0.200791
0.198685
0.197238
0.202534
0.200133
0.197435
0.200429
0.19783
0.193619
0.196481
0.195165
0.195066
0.196678
0.200725
0.195395
0.198817
0.195889
0.196481
0.198258
0.198389
0.198883
0.201087
0.195889
0.201712
0.195988
0.197205
0.197731
0.195264
0.195001
0.195757
0.199014
0.196284
0.193948
0.196645
0.196053
0.198356
0.20033
0.196974
0.1976
0.197501
0.198652
0.198981
0.194408
0.198587
0.195001
0.198027
0.198587
0.196086
0.197106
0.199014
0.194704
0.197698
0.19931
0.199837
0.195527
0.198027
0.194902
0.195593
0.198126
0.194672
0.196613
0.197238
0.196251
0.198751
0.195362
0.198652
0.200396
0.197764
0.193981
0.195494
0.199442
0.198159
0.199277
0.198652
0.198948
0.199475
0.199475
0.202765
0.198521
0.197961
0.198422
0.20033
0.197994
0.201054
0.197238
0.197238
0.201416
0.197303
0.199902
0.2001
0.199705
0.198948
0.197764
0.195593
0.19931
0.198685
0.196942
0.196613
0.199639
0.191941
0.197764
0.197896
0.199146
0.195428
0.192994
0.196119
0.2001
0.196942
0.200659
0.202107
0.198422
0.197435
0.196284
0.199376
0.194112
0.19704
0.195691
0.199376
0.197271
0.194869
0.199146
0.198916
0.198619
0.199672
0.199179
0.198422
0.200495
0.199343
0.201383
0.198455
0.198323
0.200889
